trial,stimulus,prime,word,responsetime,accuracy
1,38,NH1,payday,849,1
2,61,NL2,relax,753,1
3,29,PL2,morgue,761,1
4,23,PL1,fatal,767,1
5,60,NL2,arrest,803,1
6,63,NL2,excite,742,1
7,37,NH1,excite,682,1
8,13,PH2,fatal,982,1
9,3,PH1,relax,662,1
10,43,NH2,morgue,600,1
11,16,PH2,dismal,665,1
12,12,PH2,comfy,783,1
13,5,PH1,fatal,626,1
14,10,PH2,payday,996,1
15,50,NL1,dismal,757,1
16,35,NH1,morgue,475,2
17,11,PH2,relax,786,1
18,8,PH1,dismal,629,1
19,26,PL2,comfy,660,1
20,51,NL1,fatal,711,1
21,24,PL1,arrest,875,1
22,64,NL2,payday,608,1
23,32,PL2,arrest,699,1
24,46,NH2,payday,574,1
25,22,PL1,dismal,589,1
26,57,NL2,morgue,818,1
27,52,NL1,arrest,615,1
28,15,PH2,morgue,810,1
29,1,PH1,excite,989,1
30,6,PH1,arrest,539,1
31,40,NH1,comfy,626,1
32,45,NH2,excite,728,1
33,58,NL2,dismal,608,1
34,18,PL1,comfy,578,1
35,49,NL1,morgue,624,1
36,20,PL1,payday,729,1
37,17,PL1,relax,477,1
38,62,NL2,comfy,577,1
39,9,PH2,excite,758,1
40,39,NH1,relax,618,1
41,42,NH2,arrest,743,1
42,27,PL2,excite,680,1
43,2,PH1,payday,916,1
44,59,NL2,fatal,645,1
45,47,NH2,relax,606,1
46,4,PH1,comfy,609,1
47,56,NL1,payday,539,1
48,54,NL1,comfy,596,1
49,34,NH1,arrest,652,1
50,21,PL1,morgue,584,1
51,31,PL2,fatal,635,1
52,19,PL1,excite,578,1
53,53,NL1,relax,542,1
54,55,NL1,excite,560,1
55,28,PL2,payday,617,1
56,30,PL2,dismal,636,1
57,48,NH2,comfy,704,1
58,14,PH2,arrest,553,1
59,7,PH1,morgue,620,1
60,41,NH2,fatal,555,1
61,33,NH1,fatal,539,1
62,36,NH1,dismal,418,1
63,3,PH1,relax,522,1
64,48,NH2,comfy,457,1
65,17,PL1,relax,505,1
66,23,PL1,fatal,551,1
67,40,NH1,comfy,392,1
68,11,PH2,relax,362,1
69,27,PL2,excite,333,1
70,14,PH2,arrest,274,2
71,61,NL2,relax,536,1
72,55,NL1,excite,426,1
73,58,NL2,dismal,448,1
74,60,NL2,arrest,537,1
75,53,NL1,relax,510,1
76,43,NH2,morgue,492,1
77,24,PL1,arrest,443,1
78,45,NH2,excite,465,1
79,5,PH1,fatal,455,1
80,49,NL1,morgue,432,1
81,20,PL1,payday,391,1
82,37,NH1,excite,463,1
83,35,NH1,morgue,449,1
84,15,PH2,morgue,300,2
85,64,NL2,payday,486,1
86,63,NL2,excite,465,2
87,56,NL1,payday,512,1
88,50,NL1,dismal,565,1
89,7,PH1,morgue,535,1
90,34,NH1,arrest,459,1
91,39,NH1,relax,499,1
92,47,NH2,relax,421,1
93,29,PL2,morgue,510,1
94,9,PH2,excite,421,1
95,12,PH2,comfy,467,1
96,25,PL2,relax,475,1
97,6,PH1,arrest,540,1
98,22,PL1,dismal,531,1
99,13,PH2,fatal,522,1
100,44,NH2,dismal,482,1
101,18,PL1,comfy,507,1
102,2,PH1,payday,489,1
103,4,PH1,comfy,479,1
104,21,PL1,morgue,480,1
105,54,NL1,comfy,476,1
106,38,NH1,payday,442,1
107,42,NH2,arrest,496,1
108,46,NH2,payday,541,1
109,33,NH1,fatal,443,1
110,52,NL1,arrest,400,1
111,59,NL2,fatal,394,1
112,62,NL2,comfy,425,1
113,1,PH1,excite,482,1
114,26,PL2,comfy,496,1
115,16,PH2,dismal,494,1
116,51,NL1,fatal,462,1
117,19,PL1,excite,506,1
118,32,PL2,arrest,461,1
119,31,PL2,fatal,434,1
120,41,NH2,fatal,414,1
121,30,PL2,dismal,486,1
122,41,NH2,fatal,910,1
123,57,NL2,morgue,1059,1
124,62,NL2,comfy,1055,1
125,37,NH1,excite,1088,1
126,23,PL1,fatal,661,1
127,10,PH2,payday,820,1
128,24,PL1,arrest,1075,1
129,30,PL2,dismal,1114,1
130,5,PH1,fatal,711,1
131,20,PL1,payday,921,1
132,61,NL2,relax,890,1
133,64,NL2,payday,926,1
134,2,PH1,payday,653,1
135,58,NL2,dismal,715,1
136,7,PH1,morgue,741,1
137,35,NH1,morgue,801,1
138,21,PL1,morgue,673,1
139,50,NL1,dismal,668,1
140,60,NL2,arrest,638,1
141,52,NL1,arrest,478,1
142,13,PH2,fatal,886,1
143,54,NL1,comfy,747,1
144,38,NH1,payday,634,1
145,17,PL1,relax,1077,1
146,55,NL1,excite,676,1
147,22,PL1,dismal,581,1
148,39,NH1,relax,1101,1
149,34,NH1,arrest,685,1
150,28,PL2,payday,578,1
151,31,PL2,fatal,522,1
152,33,NH1,fatal,587,1
153,14,PH2,arrest,592,1
154,32,PL2,arrest,468,1
155,19,PL1,excite,789,1
156,12,PH2,comfy,851,1
157,49,NL1,morgue,548,1
158,56,NL1,payday,496,1
159,44,NH2,dismal,577,1
160,27,PL2,excite,565,1
161,26,PL2,comfy,605,1
162,36,NH1,dismal,679,1
163,8,PH1,dismal,540,1
164,51,NL1,fatal,664,1
165,11,PH2,relax,570,1
166,42,NH2,arrest,620,1
167,1,PH1,excite,627,1
168,46,NH2,payday,544,1
169,63,NL2,excite,502,1
170,59,NL2,fatal,921,1
171,16,PH2,dismal,885,1
172,29,PL2,morgue,594,1
173,45,NH2,excite,577,1
174,18,PL1,comfy,798,1
175,4,PH1,comfy,452,1
176,53,NL1,relax,748,1
177,43,NH2,morgue,532,1
178,9,PH2,excite,551,1
179,6,PH1,arrest,658,1
180,25,PL2,relax,637,1
181,3,PH1,relax,433,1
182,54,NL1,comfy,652,1
183,24,PL1,arrest,801,1
184,53,NL1,relax,603,1
185,34,NH1,arrest,711,1
186,14,PH2,arrest,580,1
187,20,PL1,payday,654,1
188,29,PL2,morgue,778,1
189,25,PL2,relax,597,1
190,33,NH1,fatal,567,1
191,6,PH1,arrest,835,1
192,10,PH2,payday,618,1
193,21,PL1,morgue,638,1
194,43,NH2,morgue,608,1
195,16,PH2,dismal,727,1
196,52,NL1,arrest,624,1
197,9,PH2,excite,750,1
198,41,NH2,fatal,566,1
199,11,PH2,relax,596,1
200,56,NL1,payday,505,1
201,42,NH2,arrest,586,1
202,47,NH2,relax,746,1
203,8,PH1,dismal,572,1
204,13,PH2,fatal,728,1
205,61,NL2,relax,692,1
206,17,PL1,relax,578,1
207,50,NL1,dismal,681,1
208,27,PL2,excite,570,1
209,1,PH1,excite,561,1
210,55,NL1,excite,596,1
211,2,PH1,payday,758,1
212,62,NL2,comfy,697,1
213,18,PL1,comfy,623,1
214,45,NH2,excite,688,1
215,19,PL1,excite,524,1
216,22,PL1,dismal,629,1
217,39,NH1,relax,571,1
218,32,PL2,arrest,807,1
219,26,PL2,comfy,587,1
220,63,NL2,excite,614,1
221,59,NL2,fatal,686,1
222,64,NL2,payday,683,1
223,23,PL1,fatal,700,1
224,4,PH1,comfy,608,1
225,7,PH1,morgue,668,1
226,46,NH2,payday,656,1
227,35,NH1,morgue,658,1
228,57,NL2,morgue,693,1
229,28,PL2,payday,580,1
230,48,NH2,comfy,635,1
231,38,NH1,payday,625,1
232,58,NL2,dismal,748,1
233,30,PL2,dismal,751,1
234,40,NH1,comfy,571,1
235,15,PH2,morgue,660,1
236,12,PH2,comfy,676,1
237,51,NL1,fatal,628,1
238,31,PL2,fatal,708,1
239,49,NL1,morgue,638,1
240,44,NH2,dismal,792,1
241,3,PH1,relax,629,1
242,13,PH2,fatal,605,1
243,57,NL2,morgue,584,1
244,50,NL1,dismal,547,1
245,27,PL2,excite,493,1
246,14,PH2,arrest,563,1
247,7,PH1,morgue,644,1
248,33,NH1,fatal,603,1
249,34,NH1,arrest,479,1
250,11,PH2,relax,501,1
251,1,PH1,excite,847,1
252,17,PL1,relax,622,1
253,52,NL1,arrest,505,1
254,5,PH1,fatal,522,1
255,35,NH1,morgue,588,1
256,64,NL2,payday,901,1
257,28,PL2,payday,748,1
258,53,NL1,relax,896,1
259,59,NL2,fatal,415,1
260,54,NL1,comfy,606,2
261,24,PL1,arrest,712,1
262,29,PL2,morgue,684,1
263,20,PL1,payday,605,1
264,18,PL1,comfy,768,1
265,60,NL2,arrest,589,1
266,43,NH2,morgue,592,1
267,21,PL1,morgue,671,1
268,36,NH1,dismal,984,1
269,16,PH2,dismal,593,1
270,19,PL1,excite,705,1
271,12,PH2,comfy,550,1
272,37,NH1,excite,480,1
273,45,NH2,excite,543,1
274,63,NL2,excite,1073,1
275,25,PL2,relax,787,1
276,38,NH1,payday,590,1
277,2,PH1,payday,472,1
278,47,NH2,relax,629,1
279,23,PL1,fatal,1388,1
280,51,NL1,fatal,919,1
281,42,NH2,arrest,540,1
282,26,PL2,comfy,670,1
283,48,NH2,comfy,659,1
284,10,PH2,payday,583,1
285,32,PL2,arrest,890,1
286,55,NL1,excite,754,2
287,40,NH1,comfy,936,1
288,56,NL1,payday,1444,1
289,41,NH2,fatal,1025,1
290,9,PH2,excite,867,1
291,44,NH2,dismal,920,1
292,4,PH1,comfy,652,1
293,61,NL2,relax,765,1
294,8,PH1,dismal,1299,1
295,6,PH1,arrest,739,1
296,30,PL2,dismal,996,1
297,31,PL2,fatal,508,1
298,28,PL2,payday,681,1
299,61,NL2,relax,624,1
300,21,PL1,morgue,670,1
301,22,PL1,dismal,527,1
302,13,PH2,fatal,617,1
303,58,NL2,dismal,526,1
304,39,NH1,relax,560,1
305,40,NH1,comfy,672,1
306,1,PH1,excite,524,1
307,44,NH2,dismal,611,1
308,17,PL1,relax,576,1
309,6,PH1,arrest,519,1
310,32,PL2,arrest,395,1
311,12,PH2,comfy,435,1
312,20,PL1,payday,507,1
313,49,NL1,morgue,508,1
314,48,NH2,comfy,487,1
315,16,PH2,dismal,530,1
316,7,PH1,morgue,587,1
317,36,NH1,dismal,498,1
318,64,NL2,payday,548,1
319,14,PH2,arrest,491,1
320,63,NL2,excite,485,1
321,3,PH1,relax,558,1
322,2,PH1,payday,493,1
323,55,NL1,excite,487,1
324,56,NL1,payday,482,1
325,46,NH2,payday,507,1
326,51,NL1,fatal,464,1
327,41,NH2,fatal,409,1
328,15,PH2,morgue,634,1
329,4,PH1,comfy,543,1
330,53,NL1,relax,700,1
331,18,PL1,comfy,529,1
332,27,PL2,excite,444,1
333,30,PL2,dismal,513,1
334,54,NL1,comfy,529,1
335,26,PL2,comfy,405,1
336,43,NH2,morgue,440,1
337,50,NL1,dismal,481,1
338,29,PL2,morgue,479,1
339,8,PH1,dismal,440,1
340,24,PL1,arrest,482,1
341,33,NH1,fatal,418,1
342,62,NL2,comfy,548,1
343,38,NH1,payday,690,1
344,10,PH2,payday,431,1
345,34,NH1,arrest,510,1
346,57,NL2,morgue,467,1
347,35,NH1,morgue,756,1
348,19,PL1,excite,537,1
349,42,NH2,arrest,557,2
350,23,PL1,fatal,595,1
351,47,NH2,relax,484,1
352,11,PH2,relax,535,1
353,45,NH2,excite,607,1
354,31,PL2,fatal,501,1
355,59,NL2,fatal,399,1
356,5,PH1,fatal,368,1
357,60,NL2,arrest,448,1
358,37,NH1,excite,519,1
359,25,PL2,relax,536,1
360,30,PL2,dismal,463,1
361,60,NL2,arrest,548,1
362,6,PH1,arrest,542,1
363,20,PL1,payday,599,1
364,21,PL1,morgue,567,1
365,44,NH2,dismal,529,1
366,19,PL1,excite,478,1
367,51,NL1,fatal,494,1
368,4,PH1,comfy,422,1
369,27,PL2,excite,503,1
370,48,NH2,comfy,526,1
371,62,NL2,comfy,493,1
372,24,PL1,arrest,453,1
373,12,PH2,comfy,466,1
374,54,NL1,comfy,415,1
375,35,NH1,morgue,501,1
376,55,NL1,excite,469,1
377,41,NH2,fatal,501,1
378,61,NL2,relax,554,1
379,17,PL1,relax,514,1
380,31,PL2,fatal,485,1
381,11,PH2,relax,531,1
382,29,PL2,morgue,592,1
383,34,NH1,arrest,443,1
384,63,NL2,excite,518,1
385,58,NL2,dismal,586,1
386,26,PL2,comfy,371,1
387,15,PH2,morgue,494,1
388,52,NL1,arrest,625,1
389,23,PL1,fatal,562,1
390,43,NH2,morgue,471,1
391,33,NH1,fatal,557,1
392,9,PH2,excite,350,1
393,53,NL1,relax,444,2
394,18,PL1,comfy,468,1
395,42,NH2,arrest,431,1
396,39,NH1,relax,592,1
397,50,NL1,dismal,512,1
398,64,NL2,payday,622,1
399,57,NL2,morgue,464,1
400,28,PL2,payday,531,1
401,22,PL1,dismal,467,1
402,32,PL2,arrest,563,1
403,46,NH2,payday,474,1
404,7,PH1,morgue,497,1
405,25,PL2,relax,462,1
406,16,PH2,dismal,340,1
407,2,PH1,payday,471,1
408,37,NH1,excite,541,1
409,47,NH2,relax,440,1
410,3,PH1,relax,411,1
411,59,NL2,fatal,537,1
412,49,NL1,morgue,549,1
413,8,PH1,dismal,507,1
414,1,PH1,excite,566,2
415,56,NL1,payday,595,1
416,36,NH1,dismal,543,1
417,45,NH2,excite,546,1
418,13,PH2,fatal,525,1
419,40,NH1,comfy,551,1
420,41,NH2,fatal,481,1
421,63,NL2,excite,696,1
422,24,PL1,arrest,461,1
423,17,PL1,relax,652,2
424,45,NH2,excite,580,1
425,22,PL1,dismal,666,1
426,14,PH2,arrest,557,1
427,47,NH2,relax,622,1
428,42,NH2,arrest,553,1
429,29,PL2,morgue,566,1
430,48,NH2,comfy,529,1
431,11,PH2,relax,444,1
432,23,PL1,fatal,628,1
433,19,PL1,excite,462,1
434,4,PH1,comfy,470,1
435,34,NH1,arrest,454,1
436,30,PL2,dismal,420,1
437,60,NL2,arrest,459,1
438,9,PH2,excite,444,1
439,27,PL2,excite,487,1
440,25,PL2,relax,483,1
441,40,NH1,comfy,510,1
442,3,PH1,relax,477,1
443,53,NL1,relax,580,1
444,15,PH2,morgue,574,1
445,16,PH2,dismal,463,1
446,54,NL1,comfy,471,1
447,7,PH1,morgue,481,1
448,56,NL1,payday,510,1
449,43,NH2,morgue,437,1
450,28,PL2,payday,435,1
451,5,PH1,fatal,482,1
452,10,PH2,payday,376,1
453,32,PL2,arrest,431,1
454,38,NH1,payday,523,1
455,57,NL2,morgue,500,1
456,33,NH1,fatal,522,1
457,12,PH2,comfy,544,1
458,50,NL1,dismal,549,1
459,59,NL2,fatal,435,1
460,18,PL1,comfy,465,1
461,2,PH1,payday,388,1
462,20,PL1,payday,386,1
463,37,NH1,excite,432,1
464,31,PL2,fatal,585,1
465,35,NH1,morgue,516,1
466,49,NL1,morgue,450,1
467,1,PH1,excite,450,1
468,6,PH1,arrest,474,1
469,36,NH1,dismal,456,1
470,61,NL2,relax,467,1
471,8,PH1,dismal,579,1
472,44,NH2,dismal,408,1
473,39,NH1,relax,430,1
474,13,PH2,fatal,501,1
475,55,NL1,excite,479,1
476,46,NH2,payday,499,1
477,58,NL2,dismal,556,1
478,51,NL1,fatal,545,1
479,52,NL1,arrest,465,1
480,31,PL2,fatal,501,1
481,55,NL1,excite,636,1
482,13,PH2,fatal,635,1
483,33,NH1,fatal,597,1
484,37,NH1,excite,502,1
485,19,PL1,excite,503,1
486,10,PH2,payday,634,2
487,9,PH2,excite,596,1
488,40,NH1,comfy,717,1
489,30,PL2,dismal,621,1
490,26,PL2,comfy,493,1
491,56,NL1,payday,549,2
492,12,PH2,comfy,526,1
493,22,PL1,dismal,739,1
494,61,NL2,relax,621,1
495,6,PH1,arrest,684,1
496,3,PH1,relax,622,1
497,36,NH1,dismal,628,1
498,59,NL2,fatal,532,1
499,50,NL1,dismal,564,1
500,63,NL2,excite,558,1
501,44,NH2,dismal,582,1
502,60,NL2,arrest,589,1
503,29,PL2,morgue,557,1
504,18,PL1,comfy,587,1
505,27,PL2,excite,590,1
506,28,PL2,payday,558,2
507,52,NL1,arrest,581,1
508,20,PL1,payday,651,1
509,58,NL2,dismal,702,1
510,16,PH2,dismal,726,1
511,1,PH1,excite,589,1
512,42,NH2,arrest,526,1
513,14,PH2,arrest,501,1
514,62,NL2,comfy,588,1
515,41,NH2,fatal,742,1
516,7,PH1,morgue,563,1
517,24,PL1,arrest,621,1
518,43,NH2,morgue,470,1
519,48,NH2,comfy,531,1
520,34,NH1,arrest,476,1
521,8,PH1,dismal,573,1
522,21,PL1,morgue,549,1
523,2,PH1,payday,564,1
524,23,PL1,fatal,463,1
525,54,NL1,comfy,674,1
526,17,PL1,relax,765,1
527,49,NL1,morgue,619,1
528,25,PL2,relax,524,1
529,5,PH1,fatal,507,1
530,15,PH2,morgue,527,1
531,47,NH2,relax,590,1
532,38,NH1,payday,663,1
533,11,PH2,relax,564,1
534,53,NL1,relax,572,1
535,57,NL2,morgue,587,1
536,4,PH1,comfy,662,1
537,45,NH2,excite,552,1
538,39,NH1,relax,579,1
539,64,NL2,payday,687,1
540,45,NH2,excite,668,1
541,21,PL1,morgue,696,1
542,27,PL2,excite,674,1
543,34,NH1,arrest,605,1
544,5,PH1,fatal,733,1
545,9,PH2,excite,553,1
546,37,NH1,excite,581,1
547,57,NL2,morgue,529,1
548,23,PL1,fatal,494,1
549,12,PH2,comfy,623,1
550,32,PL2,arrest,670,1
551,62,NL2,comfy,645,1
552,4,PH1,comfy,669,1
553,11,PH2,relax,518,1
554,61,NL2,relax,632,1
555,24,PL1,arrest,676,1
556,3,PH1,relax,730,1
557,7,PH1,morgue,562,1
558,33,NH1,fatal,567,1
559,41,NH2,fatal,514,1
560,17,PL1,relax,615,1
561,25,PL2,relax,607,1
562,2,PH1,payday,581,1
563,39,NH1,relax,587,1
564,38,NH1,payday,550,1
565,46,NH2,payday,614,1
566,42,NH2,arrest,503,1
567,56,NL1,payday,499,1
568,16,PH2,dismal,588,1
569,40,NH1,comfy,608,1
570,28,PL2,payday,531,1
571,13,PH2,fatal,591,1
572,53,NL1,relax,592,1
573,55,NL1,excite,546,1
574,22,PL1,dismal,526,1
575,35,NH1,morgue,587,1
576,58,NL2,dismal,600,1
577,59,NL2,fatal,602,1
578,44,NH2,dismal,556,1
579,18,PL1,comfy,532,1
580,30,PL2,dismal,565,1
581,15,PH2,morgue,609,1
582,52,NL1,arrest,595,1
583,8,PH1,dismal,516,1
584,60,NL2,arrest,531,1
585,31,PL2,fatal,523,1
586,43,NH2,morgue,647,1
587,47,NH2,relax,587,1
588,29,PL2,morgue,623,1
589,10,PH2,payday,586,1
590,54,NL1,comfy,575,1
591,50,NL1,dismal,532,1
592,26,PL2,comfy,575,1
593,48,NH2,comfy,579,1
594,20,PL1,payday,662,1
595,6,PH1,arrest,587,1
596,36,NH1,dismal,520,1
597,14,PH2,arrest,568,1
598,19,PL1,excite,502,1
599,49,NL1,morgue,579,1
600,63,NL2,excite,686,1
601,19,PL1,excite,427,1
602,56,NL1,payday,933,1
603,11,PH2,relax,821,1
604,31,PL2,fatal,633,1
605,6,PH1,arrest,845,1
606,62,NL2,comfy,698,1
607,44,NH2,dismal,610,1
608,20,PL1,payday,632,1
609,8,PH1,dismal,509,1
610,10,PH2,payday,483,1
611,50,NL1,dismal,534,1
612,41,NH2,fatal,876,1
613,36,NH1,dismal,559,1
614,27,PL2,excite,627,1
615,9,PH2,excite,620,1
616,2,PH1,payday,813,1
617,42,NH2,arrest,509,1
618,3,PH1,relax,896,1
619,23,PL1,fatal,545,1
620,18,PL1,comfy,823,1
621,13,PH2,fatal,581,1
622,64,NL2,payday,574,1
623,60,NL2,arrest,528,1
624,53,NL1,relax,561,1
625,52,NL1,arrest,530,1
626,59,NL2,fatal,478,1
627,16,PH2,dismal,514,1
628,54,NL1,comfy,835,1
629,17,PL1,relax,443,1
630,57,NL2,morgue,626,1
631,4,PH1,comfy,515,1
632,5,PH1,fatal,554,1
633,34,NH1,arrest,639,1
634,14,PH2,arrest,841,1
635,55,NL1,excite,501,1
636,37,NH1,excite,907,1
637,48,NH2,comfy,747,1
638,40,NH1,comfy,660,1
639,1,PH1,excite,430,1
640,61,NL2,relax,671,1
641,25,PL2,relax,551,1
642,47,NH2,relax,589,1
643,38,NH1,payday,476,1
644,46,NH2,payday,529,1
645,51,NL1,fatal,515,1
646,43,NH2,morgue,584,1
647,22,PL1,dismal,521,1
648,45,NH2,excite,522,1
649,35,NH1,morgue,505,1
650,21,PL1,morgue,481,1
651,12,PH2,comfy,562,1
652,24,PL1,arrest,549,1
653,58,NL2,dismal,570,1
654,49,NL1,morgue,586,1
655,26,PL2,comfy,558,1
656,28,PL2,payday,754,1
657,33,NH1,fatal,510,1
658,7,PH1,morgue,523,1
659,48,NH2,comfy,650,1
660,42,NH2,arrest,539,1
661,43,NH2,morgue,624,1
662,55,NL1,excite,519,1
663,23,PL1,fatal,652,1
664,4,PH1,comfy,750,1
665,18,PL1,comfy,465,1
666,25,PL2,relax,490,1
667,28,PL2,payday,602,1
668,2,PH1,payday,491,1
669,36,NH1,dismal,635,1
670,13,PH2,fatal,538,1
671,20,PL1,payday,484,1
672,53,NL1,relax,664,1
673,62,NL2,comfy,501,1
674,54,NL1,comfy,400,1
675,34,NH1,arrest,436,1
676,35,NH1,morgue,525,1
677,58,NL2,dismal,460,1
678,3,PH1,relax,500,1
679,57,NL2,morgue,576,1
680,60,NL2,arrest,466,1
681,51,NL1,fatal,558,1
682,52,NL1,arrest,475,1
683,30,PL2,dismal,610,1
684,50,NL1,dismal,439,1
685,49,NL1,morgue,505,1
686,9,PH2,excite,419,1
687,6,PH1,arrest,715,1
688,33,NH1,fatal,471,1
689,7,PH1,morgue,398,1
690,39,NH1,relax,649,1
691,47,NH2,relax,450,1
692,31,PL2,fatal,440,1
693,17,PL1,relax,464,1
694,64,NL2,payday,538,1
695,41,NH2,fatal,406,1
696,15,PH2,morgue,537,1
697,44,NH2,dismal,439,1
698,32,PL2,arrest,456,1
699,26,PL2,comfy,480,1
700,46,NH2,payday,506,1
701,11,PH2,relax,454,1
702,40,NH1,comfy,529,1
703,1,PH1,excite,486,1
704,19,PL1,excite,480,1
705,21,PL1,morgue,545,1
706,38,NH1,payday,565,1
707,27,PL2,excite,449,1
708,5,PH1,fatal,429,1
709,10,PH2,payday,659,1
710,22,PL1,dismal,738,1
711,24,PL1,arrest,593,1
712,37,NH1,excite,451,1
713,16,PH2,dismal,576,1
714,29,PL2,morgue,468,1
715,12,PH2,comfy,582,1
716,61,NL2,relax,460,1
717,45,NH2,excite,443,1
718,8,PH1,dismal,493,1
719,16,PH2,dismal,579,1
720,28,PL2,payday,846,1
721,26,PL2,comfy,920,1
722,64,NL2,payday,679,1
723,37,NH1,excite,657,1
724,24,PL1,arrest,619,1
725,14,PH2,arrest,728,1
726,43,NH2,morgue,569,1
727,38,NH1,payday,584,1
728,19,PL1,excite,432,1
729,4,PH1,comfy,570,1
730,52,NL1,arrest,529,1
731,33,NH1,fatal,666,1
732,23,PL1,fatal,460,1
733,53,NL1,relax,710,1
734,32,PL2,arrest,728,1
735,30,PL2,dismal,632,1
736,47,NH2,relax,488,2
737,8,PH1,dismal,618,1
738,9,PH2,excite,398,2
739,48,NH2,comfy,584,1
740,44,NH2,dismal,521,1
741,36,NH1,dismal,545,1
742,17,PL1,relax,714,2
743,41,NH2,fatal,490,1
744,1,PH1,excite,641,1
745,20,PL1,payday,530,2
746,25,PL2,relax,649,1
747,59,NL2,fatal,394,1
748,61,NL2,relax,434,2
749,2,PH1,payday,534,1
750,13,PH2,fatal,560,1
751,54,NL1,comfy,488,2
752,22,PL1,dismal,662,1
753,21,PL1,morgue,562,1
754,29,PL2,morgue,465,2
755,55,NL1,excite,904,1
756,15,PH2,morgue,865,1
757,34,NH1,arrest,570,1
758,6,PH1,arrest,768,2
759,45,NH2,excite,601,1
760,56,NL1,payday,505,1
761,27,PL2,excite,401,2
762,46,NH2,payday,505,1
763,57,NL2,morgue,639,1
764,49,NL1,morgue,744,1
765,62,NL2,comfy,601,1
766,5,PH1,fatal,400,1
767,35,NH1,morgue,531,1
768,50,NL1,dismal,584,1
769,10,PH2,payday,504,1
770,12,PH2,comfy,561,1
771,31,PL2,fatal,761,1
772,39,NH1,relax,719,1
773,7,PH1,morgue,402,1
774,11,PH2,relax,689,1
775,18,PL1,comfy,450,1
776,63,NL2,excite,504,1
777,37,NH1,excite,532,1
778,33,NH1,fatal,537,1
779,17,PL1,relax,469,1
780,2,PH1,payday,625,1
781,44,NH2,dismal,526,1
782,56,NL1,payday,551,1
783,10,PH2,payday,513,1
784,38,NH1,payday,546,1
785,16,PH2,dismal,611,1
786,51,NL1,fatal,604,1
787,22,PL1,dismal,555,1
788,41,NH2,fatal,589,1
789,42,NH2,arrest,517,1
790,53,NL1,relax,588,1
791,23,PL1,fatal,460,1
792,12,PH2,comfy,505,1
793,19,PL1,excite,618,2
794,54,NL1,comfy,535,1
795,30,PL2,dismal,593,1
796,55,NL1,excite,682,1
797,48,NH2,comfy,521,1
798,27,PL2,excite,557,1
799,63,NL2,excite,404,1
800,39,NH1,relax,543,1
801,58,NL2,dismal,526,1
802,64,NL2,payday,459,1
803,50,NL1,dismal,654,1
804,36,NH1,dismal,493,1
805,40,NH1,comfy,457,1
806,49,NL1,morgue,637,1
807,34,NH1,arrest,520,1
808,59,NL2,fatal,619,1
809,14,PH2,arrest,429,1
810,26,PL2,comfy,482,1
811,62,NL2,comfy,514,1
812,18,PL1,comfy,519,1
813,21,PL1,morgue,478,1
814,8,PH1,dismal,551,1
815,25,PL2,relax,542,1
816,5,PH1,fatal,650,1
817,47,NH2,relax,508,1
818,7,PH1,morgue,507,1
819,31,PL2,fatal,569,1
820,32,PL2,arrest,597,1
821,15,PH2,morgue,476,1
822,61,NL2,relax,460,1
823,45,NH2,excite,446,1
824,35,NH1,morgue,464,1
825,1,PH1,excite,444,1
826,13,PH2,fatal,608,1
827,57,NL2,morgue,388,1
828,20,PL1,payday,543,1
829,3,PH1,relax,582,1
830,6,PH1,arrest,484,1
831,46,NH2,payday,551,1
832,28,PL2,payday,434,1
833,24,PL1,arrest,457,1
834,60,NL2,arrest,452,1
835,4,PH1,comfy,430,1
836,43,NH2,morgue,366,2
837,32,PL2,arrest,676,1
838,24,PL1,arrest,566,1
839,54,NL1,comfy,438,1
840,36,NH1,dismal,531,1
841,44,NH2,dismal,416,1
842,30,PL2,dismal,386,2
843,15,PH2,morgue,637,1
844,29,PL2,morgue,592,1
845,9,PH2,excite,579,1
846,40,NH1,comfy,598,1
847,42,NH2,arrest,364,1
848,27,PL2,excite,487,1
849,61,NL2,relax,478,1
850,1,PH1,excite,587,1
851,59,NL2,fatal,533,1
852,55,NL1,excite,552,1
853,63,NL2,excite,488,1
854,35,NH1,morgue,533,1
855,41,NH2,fatal,408,1
856,8,PH1,dismal,474,1
857,19,PL1,excite,495,1
858,20,PL1,payday,417,1
859,26,PL2,comfy,454,1
860,38,NH1,payday,636,1
861,16,PH2,dismal,628,1
862,11,PH2,relax,594,1
863,3,PH1,relax,600,1
864,12,PH2,comfy,593,1
865,28,PL2,payday,555,1
866,7,PH1,morgue,346,1
867,58,NL2,dismal,517,1
868,33,NH1,fatal,431,1
869,52,NL1,arrest,551,1
870,34,NH1,arrest,473,1
871,10,PH2,payday,424,1
872,43,NH2,morgue,543,2
873,56,NL1,payday,615,1
874,37,NH1,excite,618,1
875,13,PH2,fatal,486,1
876,21,PL1,morgue,500,1
877,47,NH2,relax,633,1
878,14,PH2,arrest,630,1
879,50,NL1,dismal,482,1
880,25,PL2,relax,521,1
881,57,NL2,morgue,583,1
882,49,NL1,morgue,491,1
883,51,NL1,fatal,502,1
884,18,PL1,comfy,413,1
885,45,NH2,excite,527,1
886,4,PH1,comfy,561,1
887,31,PL2,fatal,484,1
888,60,NL2,arrest,517,1
889,48,NH2,comfy,567,1
890,53,NL1,relax,491,1
891,39,NH1,relax,570,1
892,22,PL1,dismal,471,1
893,6,PH1,arrest,555,1
894,64,NL2,payday,512,1
895,17,PL1,relax,587,1
896,2,PH1,payday,554,1
897,5,PH1,fatal,499,1
898,22,PL1,dismal,808,1
899,59,NL2,fatal,579,1
900,58,NL2,dismal,474,1
901,24,PL1,arrest,594,1
902,51,NL1,fatal,468,1
903,10,PH2,payday,317,1
904,31,PL2,fatal,371,2
905,33,NH1,fatal,409,1
906,54,NL1,comfy,740,1
907,57,NL2,morgue,733,1
908,49,NL1,morgue,374,1
909,44,NH2,dismal,391,1
910,50,NL1,dismal,448,1
911,18,PL1,comfy,506,1
912,47,NH2,relax,578,1
913,48,NH2,comfy,520,1
914,16,PH2,dismal,607,1
915,21,PL1,morgue,767,1
916,8,PH1,dismal,504,1
917,5,PH1,fatal,546,1
918,34,NH1,arrest,458,1
919,1,PH1,excite,580,1
920,30,PL2,dismal,822,1
921,53,NL1,relax,551,1
922,64,NL2,payday,511,1
923,45,NH2,excite,449,1
924,62,NL2,comfy,468,2
925,13,PH2,fatal,552,1
926,23,PL1,fatal,461,1
927,40,NH1,comfy,502,1
928,20,PL1,payday,481,1
929,42,NH2,arrest,579,1
930,63,NL2,excite,508,1
931,43,NH2,morgue,530,1
932,12,PH2,comfy,280,1
933,29,PL2,morgue,505,1
934,36,NH1,dismal,500,1
935,7,PH1,morgue,644,1
936,55,NL1,excite,563,1
937,60,NL2,arrest,470,1
938,27,PL2,excite,451,1
939,39,NH1,relax,433,1
940,9,PH2,excite,348,1
941,32,PL2,arrest,612,1
942,35,NH1,morgue,579,1
943,11,PH2,relax,325,1
944,52,NL1,arrest,663,1
945,4,PH1,comfy,436,1
946,6,PH1,arrest,440,1
947,28,PL2,payday,414,1
948,61,NL2,relax,565,1
949,56,NL1,payday,518,1
950,37,NH1,excite,419,1
951,2,PH1,payday,305,2
952,25,PL2,relax,422,1
953,14,PH2,arrest,340,2
954,19,PL1,excite,564,1
955,26,PL2,comfy,506,1
956,38,NH1,payday,461,1
957,15,PH2,morgue,564,1
958,23,PL1,fatal,682,1
959,41,NH2,fatal,726,1
960,15,PH2,morgue,748,1
961,54,NL1,comfy,728,1
962,55,NL1,excite,764,1
963,27,PL2,excite,543,1
964,51,NL1,fatal,705,1
965,45,NH2,excite,637,1
966,5,PH1,fatal,600,1
967,4,PH1,comfy,634,1
968,21,PL1,morgue,659,1
969,58,NL2,dismal,748,1
970,30,PL2,dismal,594,1
971,50,NL1,dismal,645,1
972,16,PH2,dismal,565,1
973,62,NL2,comfy,632,1
974,22,PL1,dismal,632,1
975,43,NH2,morgue,608,1
976,38,NH1,payday,810,1
977,63,NL2,excite,572,1
978,59,NL2,fatal,575,1
979,20,PL1,payday,525,1
980,61,NL2,relax,727,1
981,40,NH1,comfy,482,1
982,17,PL1,relax,547,1
983,34,NH1,arrest,821,1
984,28,PL2,payday,840,1
985,2,PH1,payday,569,1
986,13,PH2,fatal,566,1
987,57,NL2,morgue,641,1
988,9,PH2,excite,644,1
989,7,PH1,morgue,692,1
990,52,NL1,arrest,733,1
991,33,NH1,fatal,624,1
992,47,NH2,relax,750,1
993,49,NL1,morgue,704,1
994,1,PH1,excite,574,1
995,18,PL1,comfy,665,1
996,48,NH2,comfy,526,1
997,19,PL1,excite,623,1
998,39,NH1,relax,632,1
999,14,PH2,arrest,649,1
1000,53,NL1,relax,536,1
1001,12,PH2,comfy,557,1
1002,64,NL2,payday,692,1
1003,46,NH2,payday,538,1
1004,10,PH2,payday,383,1
1005,3,PH1,relax,670,1
1006,11,PH2,relax,496,1
1007,44,NH2,dismal,826,1
1008,36,NH1,dismal,608,1
1009,29,PL2,morgue,651,1
1010,6,PH1,arrest,755,1
1011,25,PL2,relax,687,1
1012,35,NH1,morgue,604,1
1013,26,PL2,comfy,562,1
1014,32,PL2,arrest,621,1
1015,37,NH1,excite,575,1
1016,8,PH1,dismal,562,1
1017,24,PL1,arrest,573,1
1018,49,NL1,morgue,632,1
1019,64,NL2,payday,633,1
1020,22,PL1,dismal,573,1
1021,62,NL2,comfy,525,1
1022,20,PL1,payday,572,1
1023,35,NH1,morgue,608,1
1024,12,PH2,comfy,515,1
1025,47,NH2,relax,630,1
1026,45,NH2,excite,570,2
1027,31,PL2,fatal,575,1
1028,30,PL2,dismal,686,1
1029,39,NH1,relax,530,1
1030,59,NL2,fatal,626,1
1031,14,PH2,arrest,599,1
1032,40,NH1,comfy,556,1
1033,60,NL2,arrest,573,1
1034,16,PH2,dismal,584,1
1035,7,PH1,morgue,574,1
1036,29,PL2,morgue,684,1
1037,55,NL1,excite,667,1
1038,43,NH2,morgue,543,1
1039,54,NL1,comfy,587,1
1040,44,NH2,dismal,560,1
1041,3,PH1,relax,613,1
1042,21,PL1,morgue,542,1
1043,1,PH1,excite,613,1
1044,46,NH2,payday,558,1
1045,32,PL2,arrest,544,1
1046,18,PL1,comfy,667,1
1047,56,NL1,payday,602,1
1048,50,NL1,dismal,481,1
1049,23,PL1,fatal,642,1
1050,19,PL1,excite,686,1
1051,28,PL2,payday,544,1
1052,26,PL2,comfy,499,1
1053,15,PH2,morgue,546,1
1054,10,PH2,payday,541,1
1055,11,PH2,relax,629,1
1056,48,NH2,comfy,487,1
1057,27,PL2,excite,591,1
1058,38,NH1,payday,514,1
1059,33,NH1,fatal,606,1
1060,8,PH1,dismal,512,1
1061,25,PL2,relax,616,1
1062,4,PH1,comfy,486,1
1063,52,NL1,arrest,586,1
1064,5,PH1,fatal,722,1
1065,57,NL2,morgue,571,1
1066,53,NL1,relax,641,1
1067,9,PH2,excite,555,1
1068,51,NL1,fatal,622,1
1069,2,PH1,payday,530,1
1070,63,NL2,excite,630,2
1071,37,NH1,excite,672,1
1072,36,NH1,dismal,572,1
1073,34,NH1,arrest,573,1
1074,58,NL2,dismal,458,1
1075,41,NH2,fatal,717,1
1076,17,PL1,relax,546,1
1077,42,NH2,arrest,540,1
1078,24,PL1,arrest,429,1
1079,6,PH1,arrest,457,1
1080,13,PH2,fatal,670,1
1081,61,NL2,relax,660,1
1082,39,NH1,relax,359,2
1083,41,NH2,fatal,566,1
1084,62,NL2,comfy,545,1
1085,25,PL2,relax,669,1
1086,27,PL2,excite,719,1
1087,29,PL2,morgue,705,1
1088,10,PH2,payday,849,1
1089,5,PH1,fatal,578,1
1090,38,NH1,payday,884,1
1091,64,NL2,payday,820,1
1092,28,PL2,payday,509,1
1093,23,PL1,fatal,803,1
1094,57,NL2,morgue,520,1
1095,21,PL1,morgue,446,1
1096,12,PH2,comfy,522,1
1097,24,PL1,arrest,789,1
1098,17,PL1,relax,626,1
1099,53,NL1,relax,727,1
1100,43,NH2,morgue,640,1
1101,56,NL1,payday,617,1
1102,9,PH2,excite,587,1
1103,34,NH1,arrest,1028,1
1104,2,PH1,payday,528,1
1105,36,NH1,dismal,536,1
1106,33,NH1,fatal,556,1
1107,6,PH1,arrest,549,1
1108,31,PL2,fatal,426,1
1109,7,PH1,morgue,506,1
1110,26,PL2,comfy,569,1
1111,16,PH2,dismal,529,1
1112,3,PH1,relax,629,1
1113,42,NH2,arrest,558,1
1114,49,NL1,morgue,463,1
1115,15,PH2,morgue,437,1
1116,4,PH1,comfy,668,1
1117,52,NL1,arrest,534,1
1118,11,PH2,relax,548,1
1119,37,NH1,excite,676,2
1120,22,PL1,dismal,598,1
1121,54,NL1,comfy,525,1
1122,45,NH2,excite,623,1
1123,30,PL2,dismal,682,1
1124,18,PL1,comfy,502,1
1125,48,NH2,comfy,408,1
1126,1,PH1,excite,608,1
1127,63,NL2,excite,539,1
1128,60,NL2,arrest,589,1
1129,35,NH1,morgue,526,1
1130,20,PL1,payday,583,1
1131,51,NL1,fatal,532,1
1132,44,NH2,dismal,429,1
1133,50,NL1,dismal,553,1
1134,14,PH2,arrest,655,1
1135,8,PH1,dismal,464,1
1136,46,NH2,payday,669,1
1137,47,NH2,relax,613,1
1138,40,NH1,comfy,560,1
1139,16,PH2,dismal,993,1
1140,39,NH1,relax,771,1
1141,38,NH1,payday,970,1
1142,64,NL2,payday,890,1
1143,36,NH1,dismal,1052,1
1144,49,NL1,morgue,1028,1
1145,11,PH2,relax,966,1
1146,37,NH1,excite,820,1
1147,22,PL1,dismal,772,1
1148,57,NL2,morgue,1094,1
1149,10,PH2,payday,1088,1
1150,30,PL2,dismal,1028,1
1151,53,NL1,relax,744,1
1152,24,PL1,arrest,1059,1
1153,46,NH2,payday,747,1
1154,4,PH1,comfy,959,1
1155,12,PH2,comfy,973,1
1156,28,PL2,payday,522,1
1157,48,NH2,comfy,737,1
1158,18,PL1,comfy,569,1
1159,56,NL1,payday,828,1
1160,15,PH2,morgue,1136,1
1161,21,PL1,morgue,1136,1
1162,62,NL2,comfy,953,1
1163,51,NL1,fatal,1112,1
1164,61,NL2,relax,864,1
1165,25,PL2,relax,924,1
1166,42,NH2,arrest,996,1
1167,2,PH1,payday,1060,1
1168,17,PL1,relax,658,1
1169,63,NL2,excite,786,1
1170,44,NH2,dismal,996,1
1171,33,NH1,fatal,1004,1
1172,14,PH2,arrest,948,1
1173,41,NH2,fatal,1026,1
1174,55,NL1,excite,923,1
1175,19,PL1,excite,723,1
1176,47,NH2,relax,766,1
1177,3,PH1,relax,565,1
1178,5,PH1,fatal,1019,1
1179,1,PH1,excite,1030,1
1180,54,NL1,comfy,831,1
1181,20,PL1,payday,616,1
1182,7,PH1,morgue,762,1
1183,40,NH1,comfy,975,1
1184,59,NL2,fatal,895,1
1185,26,PL2,comfy,759,1
1186,8,PH1,dismal,800,1
1187,9,PH2,excite,979,1
1188,50,NL1,dismal,1049,1
1189,60,NL2,arrest,942,1
1190,13,PH2,fatal,977,1
1191,45,NH2,excite,745,1
1192,58,NL2,dismal,983,1
1193,31,PL2,fatal,957,1
1194,23,PL1,fatal,1083,1
1195,29,PL2,morgue,905,1
1196,6,PH1,arrest,950,1
1197,35,NH1,morgue,1021,1
1198,52,NL1,arrest,933,1
1199,12,PH2,comfy,642,1
1200,21,PL1,morgue,751,1
1201,34,NH1,arrest,639,1
1202,29,PL2,morgue,726,1
1203,11,PH2,relax,650,1
1204,61,NL2,relax,748,1
1205,43,NH2,morgue,734,1
1206,5,PH1,fatal,692,1
1207,51,NL1,fatal,783,1
1208,2,PH1,payday,888,1
1209,20,PL1,payday,651,1
1210,32,PL2,arrest,653,1
1211,26,PL2,comfy,606,1
1212,1,PH1,excite,669,1
1213,17,PL1,relax,1110,1
1214,35,NH1,morgue,808,1
1215,10,PH2,payday,673,1
1216,58,NL2,dismal,958,1
1217,39,NH1,relax,584,1
1218,63,NL2,excite,1058,1
1219,4,PH1,comfy,921,1
1220,50,NL1,dismal,638,1
1221,23,PL1,fatal,836,1
1222,7,PH1,morgue,867,1
1223,52,NL1,arrest,829,1
1224,40,NH1,comfy,725,1
1225,36,NH1,dismal,571,1
1226,64,NL2,payday,569,1
1227,60,NL2,arrest,687,1
1228,6,PH1,arrest,604,1
1229,27,PL2,excite,726,1
1230,30,PL2,dismal,724,1
1231,42,NH2,arrest,518,1
1232,16,PH2,dismal,587,1
1233,33,NH1,fatal,568,1
1234,3,PH1,relax,504,2
1235,24,PL1,arrest,567,1
1236,47,NH2,relax,700,1
1237,55,NL1,excite,1086,1
1238,53,NL1,relax,601,1
1239,9,PH2,excite,682,1
1240,41,NH2,fatal,646,1
1241,56,NL1,payday,736,1
1242,45,NH2,excite,529,1
1243,28,PL2,payday,595,1
1244,48,NH2,comfy,645,1
1245,22,PL1,dismal,542,1
1246,19,PL1,excite,730,1
1247,8,PH1,dismal,553,1
1248,15,PH2,morgue,611,1
1249,59,NL2,fatal,582,1
1250,46,NH2,payday,672,1
1251,49,NL1,morgue,630,1
1252,14,PH2,arrest,607,1
1253,44,NH2,dismal,635,1
1254,38,NH1,payday,925,1
1255,13,PH2,fatal,589,1
1256,37,NH1,excite,605,1
1257,62,NL2,comfy,666,1
1258,31,PL2,fatal,595,1
1259,38,NH1,payday,516,1
1260,20,PL1,payday,484,1
1261,23,PL1,fatal,490,1
1262,9,PH2,excite,523,1
1263,6,PH1,arrest,579,1
1264,37,NH1,excite,440,1
1265,53,NL1,relax,559,1
1266,51,NL1,fatal,477,1
1267,42,NH2,arrest,431,1
1268,59,NL2,fatal,490,1
1269,14,PH2,arrest,513,1
1270,54,NL1,comfy,557,1
1271,30,PL2,dismal,573,1
1272,49,NL1,morgue,549,1
1273,41,NH2,fatal,466,1
1274,16,PH2,dismal,539,1
1275,24,PL1,arrest,532,1
1276,50,NL1,dismal,529,1
1277,64,NL2,payday,528,1
1278,29,PL2,morgue,522,1
1279,47,NH2,relax,480,1
1280,58,NL2,dismal,489,1
1281,46,NH2,payday,511,1
1282,44,NH2,dismal,477,1
1283,39,NH1,relax,443,1
1284,26,PL2,comfy,517,1
1285,8,PH1,dismal,463,1
1286,18,PL1,comfy,514,1
1287,10,PH2,payday,396,1
1288,11,PH2,relax,404,1
1289,43,NH2,morgue,426,1
1290,15,PH2,morgue,582,1
1291,35,NH1,morgue,558,1
1292,62,NL2,comfy,479,1
1293,33,NH1,fatal,452,1
1294,55,NL1,excite,542,1
1295,31,PL2,fatal,558,1
1296,27,PL2,excite,364,1
1297,61,NL2,relax,529,1
1298,40,NH1,comfy,455,1
1299,12,PH2,comfy,506,1
1300,56,NL1,payday,496,1
1301,28,PL2,payday,439,1
1302,7,PH1,morgue,381,2
1303,32,PL2,arrest,578,1
1304,1,PH1,excite,465,1
1305,13,PH2,fatal,496,1
1306,25,PL2,relax,446,1
1307,17,PL1,relax,484,1
1308,19,PL1,excite,453,1
1309,36,NH1,dismal,470,1
1310,63,NL2,excite,490,1
1311,45,NH2,excite,542,1
1312,21,PL1,morgue,538,1
1313,5,PH1,fatal,319,2
1314,48,NH2,comfy,504,1
1315,22,PL1,dismal,496,1
1316,3,PH1,relax,446,1
1317,52,NL1,arrest,548,1
1318,35,NH1,morgue,605,1
1319,11,PH2,relax,606,1
1320,40,NH1,comfy,538,1
1321,32,PL2,arrest,600,1
1322,47,NH2,relax,610,1
1323,28,PL2,payday,710,1
1324,1,PH1,excite,583,1
1325,15,PH2,morgue,526,1
1326,44,NH2,dismal,538,1
1327,30,PL2,dismal,533,1
1328,62,NL2,comfy,601,1
1329,17,PL1,relax,626,1
1330,36,NH1,dismal,551,1
1331,6,PH1,arrest,636,1
1332,46,NH2,payday,644,1
1333,45,NH2,excite,484,1
1334,42,NH2,arrest,618,1
1335,33,NH1,fatal,499,1
1336,59,NL2,fatal,509,1
1337,26,PL2,comfy,590,1
1338,54,NL1,comfy,555,1
1339,16,PH2,dismal,545,1
1340,13,PH2,fatal,493,1
1341,8,PH1,dismal,608,1
1342,63,NL2,excite,580,1
1343,23,PL1,fatal,661,1
1344,10,PH2,payday,698,1
1345,24,PL1,arrest,464,1
1346,3,PH1,relax,572,1
1347,34,NH1,arrest,617,1
1348,61,NL2,relax,609,1
1349,31,PL2,fatal,605,1
1350,18,PL1,comfy,542,1
1351,50,NL1,dismal,630,1
1352,51,NL1,fatal,537,1
1353,39,NH1,relax,564,1
1354,64,NL2,payday,635,1
1355,12,PH2,comfy,609,1
1356,52,NL1,arrest,570,1
1357,7,PH1,morgue,460,1
1358,38,NH1,payday,544,1
1359,25,PL2,relax,493,1
1360,60,NL2,arrest,539,1
1361,14,PH2,arrest,517,1
1362,57,NL2,morgue,458,1
1363,27,PL2,excite,533,1
1364,53,NL1,relax,565,1
1365,29,PL2,morgue,458,1
1366,49,NL1,morgue,508,1
1367,5,PH1,fatal,683,1
1368,22,PL1,dismal,538,1
1369,37,NH1,excite,466,1
1370,20,PL1,payday,519,1
1371,2,PH1,payday,463,1
1372,55,NL1,excite,696,1
1373,58,NL2,dismal,571,1
1374,9,PH2,excite,447,1
1375,43,NH2,morgue,505,1
1376,19,PL1,excite,420,1
1377,21,PL1,morgue,548,1
1378,56,NL1,payday,539,1
1379,52,NL1,arrest,482,1
1380,33,NH1,fatal,530,1
1381,45,NH2,excite,475,1
1382,58,NL2,dismal,563,1
1383,41,NH2,fatal,481,1
1384,4,PH1,comfy,529,1
1385,15,PH2,morgue,582,1
1386,5,PH1,fatal,541,1
1387,26,PL2,comfy,466,1
1388,36,NH1,dismal,558,1
1389,22,PL1,dismal,536,1
1390,2,PH1,payday,513,1
1391,24,PL1,arrest,532,1
1392,60,NL2,arrest,565,1
1393,51,NL1,fatal,530,1
1394,48,NH2,comfy,479,1
1395,6,PH1,arrest,557,1
1396,34,NH1,arrest,549,1
1397,46,NH2,payday,502,1
1398,44,NH2,dismal,551,1
1399,53,NL1,relax,539,1
1400,62,NL2,comfy,487,1
1401,56,NL1,payday,478,1
1402,27,PL2,excite,492,1
1403,39,NH1,relax,488,1
1404,57,NL2,morgue,602,1
1405,14,PH2,arrest,602,1
1406,50,NL1,dismal,611,1
1407,43,NH2,morgue,584,1
1408,55,NL1,excite,490,1
1409,1,PH1,excite,579,1
1410,35,NH1,morgue,566,1
1411,42,NH2,arrest,589,1
1412,31,PL2,fatal,581,1
1413,8,PH1,dismal,526,1
1414,20,PL1,payday,523,1
1415,37,NH1,excite,531,1
1416,47,NH2,relax,572,1
1417,18,PL1,comfy,578,1
1418,29,PL2,morgue,587,1
1419,9,PH2,excite,533,1
1420,54,NL1,comfy,495,1
1421,16,PH2,dismal,506,1
1422,12,PH2,comfy,538,1
1423,40,NH1,comfy,522,1
1424,59,NL2,fatal,552,1
1425,25,PL2,relax,565,1
1426,30,PL2,dismal,505,1
1427,10,PH2,payday,567,1
1428,7,PH1,morgue,554,1
1429,32,PL2,arrest,572,1
1430,49,NL1,morgue,540,1
1431,17,PL1,relax,495,1
1432,11,PH2,relax,474,1
1433,19,PL1,excite,526,1
1434,61,NL2,relax,457,1
1435,23,PL1,fatal,496,1
1436,13,PH2,fatal,532,1
1437,64,NL2,payday,497,1
1438,38,NH1,payday,538,1
1439,21,PL1,morgue,490,1
1440,3,PH1,relax,546,1
1441,52,NL1,arrest,720,1
1442,53,NL1,relax,739,1
1443,49,NL1,morgue,633,1
1444,55,NL1,excite,535,1
1445,40,NH1,comfy,538,1
1446,35,NH1,morgue,670,1
1447,59,NL2,fatal,650,1
1448,57,NL2,morgue,654,1
1449,13,PH2,fatal,445,1
1450,1,PH1,excite,619,1
1451,17,PL1,relax,548,1
1452,8,PH1,dismal,677,1
1453,41,NH2,fatal,618,1
1454,29,PL2,morgue,497,1
1455,19,PL1,excite,492,1
1456,16,PH2,dismal,443,1
1457,25,PL2,relax,522,1
1458,31,PL2,fatal,480,1
1459,63,NL2,excite,534,1
1460,12,PH2,comfy,577,1
1461,14,PH2,arrest,600,1
1462,15,PH2,morgue,426,1
1463,28,PL2,payday,723,1
1464,33,NH1,fatal,504,1
1465,21,PL1,morgue,509,1
1466,24,PL1,arrest,466,1
1467,60,NL2,arrest,416,1
1468,61,NL2,relax,541,1
1469,46,NH2,payday,578,1
1470,3,PH1,relax,524,1
1471,6,PH1,arrest,596,2
1472,44,NH2,dismal,664,1
1473,10,PH2,payday,537,1
1474,56,NL1,payday,566,1
1475,43,NH2,morgue,454,1
1476,62,NL2,comfy,599,1
1477,26,PL2,comfy,557,1
1478,50,NL1,dismal,654,1
1479,48,NH2,comfy,644,1
1480,20,PL1,payday,552,1
1481,23,PL1,fatal,561,1
1482,18,PL1,comfy,512,1
1483,32,PL2,arrest,622,1
1484,27,PL2,excite,462,1
1485,54,NL1,comfy,478,1
1486,36,NH1,dismal,517,1
1487,39,NH1,relax,526,1
1488,22,PL1,dismal,512,1
1489,38,NH1,payday,444,1
1490,34,NH1,arrest,713,1
1491,58,NL2,dismal,577,1
1492,11,PH2,relax,413,1
1493,45,NH2,excite,566,1
1494,7,PH1,morgue,465,1
1495,51,NL1,fatal,469,1
1496,64,NL2,payday,536,1
1497,37,NH1,excite,558,1
1498,30,PL2,dismal,404,1
1499,47,NH2,relax,606,2
1500,2,PH1,payday,546,1
1501,9,PH2,excite,508,1
1502,7,PH1,morgue,652,1
1503,21,PL1,morgue,442,1
1504,48,NH2,comfy,538,1
1505,2,PH1,payday,618,1
1506,23,PL1,fatal,532,1
1507,24,PL1,arrest,476,1
1508,6,PH1,arrest,588,1
1509,60,NL2,arrest,421,1
1510,22,PL1,dismal,448,1
1511,13,PH2,fatal,532,1
1512,10,PH2,payday,544,1
1513,38,NH1,payday,424,1
1514,26,PL2,comfy,499,1
1515,45,NH2,excite,499,1
1516,16,PH2,dismal,511,1
1517,42,NH2,arrest,387,1
1518,12,PH2,comfy,504,1
1519,59,NL2,fatal,532,1
1520,27,PL2,excite,574,1
1521,15,PH2,morgue,557,1
1522,18,PL1,comfy,417,1
1523,30,PL2,dismal,463,1
1524,32,PL2,arrest,557,1
1525,20,PL1,payday,448,1
1526,58,NL2,dismal,435,1
1527,55,NL1,excite,504,1
1528,8,PH1,dismal,510,1
1529,37,NH1,excite,529,1
1530,3,PH1,relax,503,1
1531,35,NH1,morgue,481,1
1532,33,NH1,fatal,396,1
1533,61,NL2,relax,483,1
1534,9,PH2,excite,450,1
1535,51,NL1,fatal,558,1
1536,46,NH2,payday,586,1
1537,41,NH2,fatal,519,1
1538,34,NH1,arrest,462,1
1539,63,NL2,excite,597,1
1540,11,PH2,relax,432,1
1541,52,NL1,arrest,469,1
1542,54,NL1,comfy,387,1
1543,64,NL2,payday,535,1
1544,31,PL2,fatal,501,1
1545,14,PH2,arrest,371,1
1546,5,PH1,fatal,466,1
1547,4,PH1,comfy,411,1
1548,44,NH2,dismal,473,1
1549,56,NL1,payday,474,1
1550,57,NL2,morgue,478,1
1551,40,NH1,comfy,420,1
1552,49,NL1,morgue,512,1
1553,1,PH1,excite,633,1
1554,19,PL1,excite,442,1
1555,29,PL2,morgue,495,1
1556,53,NL1,relax,552,1
1557,43,NH2,morgue,492,1
1558,50,NL1,dismal,441,1
1559,47,NH2,relax,518,1
1560,36,NH1,dismal,590,1
1561,25,PL2,relax,510,1
1562,58,NL2,dismal,603,1
1563,1,PH1,excite,575,1
1564,5,PH1,fatal,562,1
1565,3,PH1,relax,537,1
1566,46,NH2,payday,587,1
1567,10,PH2,payday,486,1
1568,26,PL2,comfy,502,1
1569,11,PH2,relax,520,1
1570,19,PL1,excite,628,1
1571,18,PL1,comfy,471,1
1572,63,NL2,excite,499,1
1573,38,NH1,payday,553,1
1574,2,PH1,payday,442,1
1575,21,PL1,morgue,627,1
1576,16,PH2,dismal,653,1
1577,34,NH1,arrest,476,1
1578,40,NH1,comfy,594,1
1579,43,NH2,morgue,657,1
1580,8,PH1,dismal,692,1
1581,48,NH2,comfy,535,1
1582,25,PL2,relax,647,1
1583,47,NH2,relax,589,1
1584,7,PH1,morgue,590,1
1585,35,NH1,morgue,522,1
1586,56,NL1,payday,625,1
1587,9,PH2,excite,654,2
1588,36,NH1,dismal,636,1
1589,15,PH2,morgue,593,1
1590,27,PL2,excite,644,1
1591,23,PL1,fatal,670,1
1592,52,NL1,arrest,610,1
1593,22,PL1,dismal,518,1
1594,33,NH1,fatal,620,1
1595,31,PL2,fatal,648,1
1596,29,PL2,morgue,573,1
1597,59,NL2,fatal,487,1
1598,24,PL1,arrest,543,1
1599,51,NL1,fatal,479,1
1600,49,NL1,morgue,549,1
1601,44,NH2,dismal,582,1
1602,62,NL2,comfy,589,1
1603,39,NH1,relax,621,1
1604,60,NL2,arrest,667,1
1605,55,NL1,excite,585,2
1606,61,NL2,relax,695,2
1607,53,NL1,relax,645,1
1608,41,NH2,fatal,607,1
1609,64,NL2,payday,577,1
1610,50,NL1,dismal,605,1
1611,54,NL1,comfy,592,1
1612,12,PH2,comfy,556,1
1613,57,NL2,morgue,589,1
1614,45,NH2,excite,622,1
1615,4,PH1,comfy,649,1
1616,28,PL2,payday,563,1
1617,6,PH1,arrest,682,1
1618,37,NH1,excite,596,1
1619,42,NH2,arrest,694,1
1620,13,PH2,fatal,642,1
1621,17,PL1,relax,697,1
1622,38,NH1,payday,900,1
1623,23,PL1,fatal,820,1
1624,19,PL1,excite,759,1
1625,56,NL1,payday,707,1
1626,52,NL1,arrest,664,1
1627,17,PL1,relax,766,1
1628,9,PH2,excite,611,1
1629,60,NL2,arrest,502,1
1630,12,PH2,comfy,719,1
1631,48,NH2,comfy,691,1
1632,35,NH1,morgue,748,1
1633,39,NH1,relax,1063,1
1634,2,PH1,payday,782,1
1635,27,PL2,excite,1100,1
1636,25,PL2,relax,663,1
1637,30,PL2,dismal,722,1
1638,28,PL2,payday,706,1
1639,42,NH2,arrest,708,1
1640,62,NL2,comfy,625,1
1641,20,PL1,payday,666,1
1642,26,PL2,comfy,613,1
1643,5,PH1,fatal,719,1
1644,61,NL2,relax,544,1
1645,34,NH1,arrest,656,1
1646,6,PH1,arrest,692,1
1647,7,PH1,morgue,737,1
1648,63,NL2,excite,630,1
1649,32,PL2,arrest,739,1
1650,4,PH1,comfy,820,1
1651,21,PL1,morgue,571,1
1652,40,NH1,comfy,501,1
1653,10,PH2,payday,816,1
1654,14,PH2,arrest,940,1
1655,64,NL2,payday,733,1
1656,54,NL1,comfy,777,1
1657,46,NH2,payday,900,1
1658,43,NH2,morgue,488,1
1659,11,PH2,relax,510,1
1660,33,NH1,fatal,610,1
1661,53,NL1,relax,605,1
1662,55,NL1,excite,572,1
1663,24,PL1,arrest,626,1
1664,44,NH2,dismal,684,1
1665,3,PH1,relax,745,1
1666,31,PL2,fatal,689,1
1667,15,PH2,morgue,614,1
1668,50,NL1,dismal,706,1
1669,36,NH1,dismal,582,1
1670,49,NL1,morgue,713,1
1671,45,NH2,excite,735,1
1672,51,NL1,fatal,1088,1
1673,13,PH2,fatal,560,1
1674,1,PH1,excite,649,1
1675,59,NL2,fatal,878,1
1676,41,NH2,fatal,407,1
1677,29,PL2,morgue,579,1
1678,18,PL1,comfy,602,1
1679,16,PH2,dismal,629,1
1680,47,NH2,relax,778,1
1681,57,NL2,morgue,626,1
1682,55,NL1,excite,509,1
1683,20,PL1,payday,323,1
1684,22,PL1,dismal,646,1
1685,60,NL2,arrest,824,1
1686,57,NL2,morgue,793,1
1687,16,PH2,dismal,850,1
1688,44,NH2,dismal,714,1
1689,46,NH2,payday,809,2
1690,58,NL2,dismal,742,1
1691,2,PH1,payday,810,1
1692,37,NH1,excite,505,1
1693,12,PH2,comfy,591,1
1694,9,PH2,excite,592,1
1695,5,PH1,fatal,777,1
1696,29,PL2,morgue,722,1
1697,56,NL1,payday,662,1
1698,23,PL1,fatal,726,1
1699,13,PH2,fatal,408,2
1700,28,PL2,payday,639,1
1701,64,NL2,payday,944,1
1702,38,NH1,payday,825,1
1703,17,PL1,relax,930,1
1704,61,NL2,relax,709,1
1705,31,PL2,fatal,723,1
1706,59,NL2,fatal,633,1
1707,52,NL1,arrest,923,1
1708,53,NL1,relax,490,1
1709,54,NL1,comfy,627,1
1710,27,PL2,excite,667,1
1711,34,NH1,arrest,794,1
1712,42,NH2,arrest,600,1
1713,41,NH2,fatal,629,1
1714,8,PH1,dismal,636,1
1715,51,NL1,fatal,551,1
1716,30,PL2,dismal,658,1
1717,35,NH1,morgue,750,1
1718,32,PL2,arrest,886,1
1719,48,NH2,comfy,688,1
1720,33,NH1,fatal,833,1
1721,1,PH1,excite,688,1
1722,3,PH1,relax,614,1
1723,21,PL1,morgue,665,1
1724,15,PH2,morgue,587,1
1725,11,PH2,relax,586,1
1726,40,NH1,comfy,715,1
1727,19,PL1,excite,598,1
1728,6,PH1,arrest,634,1
1729,26,PL2,comfy,713,1
1730,36,NH1,dismal,587,1
1731,14,PH2,arrest,565,1
1732,45,NH2,excite,613,1
1733,25,PL2,relax,649,2
1734,63,NL2,excite,833,1
1735,18,PL1,comfy,585,1
1736,50,NL1,dismal,603,1
1737,4,PH1,comfy,834,1
1738,49,NL1,morgue,585,1
1739,10,PH2,payday,615,1
1740,43,NH2,morgue,606,1
1741,39,NH1,relax,599,2
1742,53,NL1,relax,726,2
1743,4,PH1,comfy,721,2
1744,14,PH2,arrest,747,1
1745,11,PH2,relax,500,1
1746,50,NL1,dismal,617,1
1747,60,NL2,arrest,694,1
1748,32,PL2,arrest,390,1
1749,6,PH1,arrest,387,1
1750,13,PH2,fatal,479,1
1751,10,PH2,payday,777,1
1752,12,PH2,comfy,448,1
1753,17,PL1,relax,1106,1
1754,30,PL2,dismal,525,1
1755,8,PH1,dismal,388,1
1756,40,NH1,comfy,770,1
1757,20,PL1,payday,479,1
1758,52,NL1,arrest,563,1
1759,45,NH2,excite,747,1
1760,58,NL2,dismal,642,1
1761,59,NL2,fatal,404,1
1762,37,NH1,excite,406,1
1763,55,NL1,excite,494,1
1764,64,NL2,payday,557,1
1765,62,NL2,comfy,481,1
1766,42,NH2,arrest,532,1
1767,46,NH2,payday,580,1
1768,3,PH1,relax,913,2
1769,48,NH2,comfy,852,1
1770,5,PH1,fatal,586,1
1771,19,PL1,excite,692,2
1772,43,NH2,morgue,677,1
1773,33,NH1,fatal,495,1
1774,26,PL2,comfy,546,1
1775,7,PH1,morgue,568,1
1776,61,NL2,relax,805,1
1777,9,PH2,excite,958,1
1778,39,NH1,relax,525,1
1779,31,PL2,fatal,588,1
1780,22,PL1,dismal,743,2
1781,28,PL2,payday,594,2
1782,51,NL1,fatal,693,1
1783,23,PL1,fatal,559,1
1784,63,NL2,excite,539,1
1785,41,NH2,fatal,509,1
1786,18,PL1,comfy,670,1
1787,21,PL1,morgue,366,2
1788,34,NH1,arrest,471,1
1789,36,NH1,dismal,394,1
1790,24,PL1,arrest,432,1
1791,47,NH2,relax,535,1
1792,56,NL1,payday,490,2
1793,25,PL2,relax,400,2
1794,15,PH2,morgue,535,1
1795,27,PL2,excite,624,2
1796,2,PH1,payday,819,1
1797,54,NL1,comfy,505,1
1798,44,NH2,dismal,827,1
1799,5,PH1,fatal,646,1
1800,58,NL2,dismal,605,1
1801,39,NH1,relax,499,1
1802,34,NH1,arrest,686,1
1803,29,PL2,morgue,528,1
1804,61,NL2,relax,483,1
1805,19,PL1,excite,541,1
1806,48,NH2,comfy,606,1
1807,63,NL2,excite,508,1
1808,54,NL1,comfy,565,1
1809,25,PL2,relax,342,1
1810,41,NH2,fatal,520,1
1811,51,NL1,fatal,539,1
1812,45,NH2,excite,456,1
1813,18,PL1,comfy,514,1
1814,20,PL1,payday,683,1
1815,30,PL2,dismal,469,1
1816,60,NL2,arrest,462,1
1817,56,NL1,payday,622,1
1818,24,PL1,arrest,630,1
1819,47,NH2,relax,499,1
1820,42,NH2,arrest,517,1
1821,9,PH2,excite,340,1
1822,14,PH2,arrest,469,2
1823,50,NL1,dismal,516,1
1824,44,NH2,dismal,542,1
1825,37,NH1,excite,533,2
1826,21,PL1,morgue,518,1
1827,33,NH1,fatal,501,1
1828,27,PL2,excite,756,1
1829,40,NH1,comfy,636,1
1830,15,PH2,morgue,455,1
1831,16,PH2,dismal,586,1
1832,46,NH2,payday,381,1
1833,35,NH1,morgue,597,1
1834,10,PH2,payday,479,1
1835,38,NH1,payday,429,1
1836,3,PH1,relax,446,1
1837,28,PL2,payday,446,1
1838,22,PL1,dismal,677,1
1839,57,NL2,morgue,563,1
1840,8,PH1,dismal,671,1
1841,1,PH1,excite,404,2
1842,62,NL2,comfy,494,1
1843,64,NL2,payday,574,1
1844,2,PH1,payday,485,1
1845,55,NL1,excite,459,1
1846,23,PL1,fatal,653,1
1847,4,PH1,comfy,527,1
1848,31,PL2,fatal,643,1
1849,32,PL2,arrest,493,1
1850,49,NL1,morgue,726,1
1851,12,PH2,comfy,731,1
1852,53,NL1,relax,523,1
1853,43,NH2,morgue,492,1
1854,6,PH1,arrest,439,1
1855,36,NH1,dismal,598,1
1856,52,NL1,arrest,565,1
1857,59,NL2,fatal,390,1
1858,11,PH2,relax,541,2
1859,7,PH1,morgue,508,2
1860,60,NL2,arrest,871,1
1861,63,NL2,excite,719,1
1862,54,NL1,comfy,842,1
1863,55,NL1,excite,546,1
1864,4,PH1,comfy,567,1
1865,31,PL2,fatal,905,1
1866,38,NH1,payday,954,1
1867,12,PH2,comfy,760,1
1868,21,PL1,morgue,924,2
1869,36,NH1,dismal,630,1
1870,48,NH2,comfy,724,1
1871,33,NH1,fatal,580,1
1872,10,PH2,payday,1124,1
1873,62,NL2,comfy,635,1
1874,8,PH1,dismal,719,1
1875,22,PL1,dismal,803,1
1876,64,NL2,payday,758,2
1877,13,PH2,fatal,796,1
1878,51,NL1,fatal,611,1
1879,52,NL1,arrest,426,1
1880,34,NH1,arrest,563,1
1881,41,NH2,fatal,591,1
1882,37,NH1,excite,383,2
1883,19,PL1,excite,522,1
1884,46,NH2,payday,1003,1
1885,9,PH2,excite,967,1
1886,18,PL1,comfy,595,1
1887,2,PH1,payday,748,1
1888,35,NH1,morgue,561,1
1889,59,NL2,fatal,523,1
1890,49,NL1,morgue,726,1
1891,57,NL2,morgue,517,1
1892,25,PL2,relax,642,1
1893,56,NL1,payday,653,1
1894,30,PL2,dismal,760,2
1895,61,NL2,relax,732,1
1896,11,PH2,relax,590,1
1897,58,NL2,dismal,743,1
1898,5,PH1,fatal,718,1
1899,23,PL1,fatal,538,1
1900,26,PL2,comfy,640,1
1901,7,PH1,morgue,343,2
1902,3,PH1,relax,657,1
1903,45,NH2,excite,822,1
1904,44,NH2,dismal,677,1
1905,1,PH1,excite,661,1
1906,50,NL1,dismal,858,1
1907,47,NH2,relax,564,1
1908,16,PH2,dismal,890,1
1909,42,NH2,arrest,884,1
1910,15,PH2,morgue,600,1
1911,17,PL1,relax,437,2
1912,43,NH2,morgue,534,1
1913,14,PH2,arrest,597,1
1914,40,NH1,comfy,1038,1
1915,24,PL1,arrest,730,1
1916,32,PL2,arrest,505,1
1917,22,PL1,dismal,546,1
1918,51,NL1,fatal,510,1
1919,33,NH1,fatal,452,1
1920,14,PH2,arrest,491,1
1921,63,NL2,excite,460,1
1922,43,NH2,morgue,564,1
1923,23,PL1,fatal,480,1
1924,25,PL2,relax,408,1
1925,54,NL1,comfy,509,1
1926,62,NL2,comfy,459,1
1927,64,NL2,payday,554,2
1928,37,NH1,excite,459,1
1929,13,PH2,fatal,553,1
1930,8,PH1,dismal,462,1
1931,48,NH2,comfy,484,1
1932,31,PL2,fatal,545,1
1933,6,PH1,arrest,536,1
1934,34,NH1,arrest,543,1
1935,50,NL1,dismal,464,1
1936,15,PH2,morgue,527,1
1937,52,NL1,arrest,592,1
1938,9,PH2,excite,522,1
1939,59,NL2,fatal,454,1
1940,29,PL2,morgue,571,1
1941,11,PH2,relax,565,1
1942,58,NL2,dismal,586,1
1943,19,PL1,excite,413,1
1944,28,PL2,payday,427,1
1945,56,NL1,payday,474,1
1946,17,PL1,relax,466,1
1947,47,NH2,relax,466,1
1948,45,NH2,excite,456,1
1949,26,PL2,comfy,407,1
1950,4,PH1,comfy,440,1
1951,42,NH2,arrest,522,1
1952,12,PH2,comfy,444,1
1953,41,NH2,fatal,540,1
1954,20,PL1,payday,481,1
1955,30,PL2,dismal,543,1
1956,3,PH1,relax,524,1
1957,38,NH1,payday,437,1
1958,24,PL1,arrest,528,1
1959,7,PH1,morgue,507,1
1960,1,PH1,excite,469,1
1961,16,PH2,dismal,469,1
1962,32,PL2,arrest,444,1
1963,2,PH1,payday,531,1
1964,27,PL2,excite,450,1
1965,46,NH2,payday,416,1
1966,5,PH1,fatal,428,1
1967,36,NH1,dismal,524,1
1968,49,NL1,morgue,494,1
1969,39,NH1,relax,511,1
1970,57,NL2,morgue,472,1
1971,40,NH1,comfy,443,1
1972,21,PL1,morgue,500,1
1973,60,NL2,arrest,500,1
1974,18,PL1,comfy,546,1
1975,55,NL1,excite,439,1
1976,53,NL1,relax,444,1
1977,44,NH2,dismal,465,1
1978,61,NL2,relax,500,1
1979,16,PH2,dismal,589,1
1980,57,NL2,morgue,586,2
1981,3,PH1,relax,624,1
1982,60,NL2,arrest,572,1
1983,10,PH2,payday,566,1
1984,22,PL1,dismal,506,1
1985,34,NH1,arrest,572,1
1986,38,NH1,payday,539,1
1987,6,PH1,arrest,522,1
1988,31,PL2,fatal,515,1
1989,49,NL1,morgue,604,1
1990,13,PH2,fatal,449,1
1991,45,NH2,excite,571,1
1992,2,PH1,payday,579,1
1993,41,NH2,fatal,596,1
1994,7,PH1,morgue,626,1
1995,18,PL1,comfy,583,1
1996,54,NL1,comfy,623,1
1997,64,NL2,payday,535,1
1998,50,NL1,dismal,493,1
1999,58,NL2,dismal,576,1
2000,26,PL2,comfy,559,1
2001,42,NH2,arrest,598,1
2002,33,NH1,fatal,487,1
2003,51,NL1,fatal,457,1
2004,56,NL1,payday,505,1
2005,29,PL2,morgue,552,1
2006,37,NH1,excite,452,1
2007,35,NH1,morgue,506,1
2008,12,PH2,comfy,503,1
2009,36,NH1,dismal,535,1
2010,14,PH2,arrest,528,1
2011,61,NL2,relax,491,1
2012,63,NL2,excite,477,1
2013,15,PH2,morgue,624,1
2014,32,PL2,arrest,479,1
2015,39,NH1,relax,530,1
2016,52,NL1,arrest,572,1
2017,28,PL2,payday,534,1
2018,30,PL2,dismal,524,1
2019,25,PL2,relax,546,1
2020,53,NL1,relax,554,1
2021,17,PL1,relax,469,1
2022,20,PL1,payday,538,1
2023,43,NH2,morgue,437,1
2024,9,PH2,excite,477,1
2025,40,NH1,comfy,588,1
2026,4,PH1,comfy,502,1
2027,5,PH1,fatal,565,1
2028,1,PH1,excite,611,1
2029,27,PL2,excite,534,1
2030,24,PL1,arrest,586,1
2031,21,PL1,morgue,547,1
2032,62,NL2,comfy,446,1
2033,46,NH2,payday,485,1
2034,19,PL1,excite,391,1
2035,47,NH2,relax,439,1
2036,55,NL1,excite,424,1
2037,8,PH1,dismal,514,1
2038,59,NL2,fatal,612,1
2039,48,NH2,comfy,539,1
